%  m0225.m     (Matlab/Simulink R2007b)
%
%  Bild 2.25
%  Mann/Schiffelgen/Froriep,
%  Einführung in die Regelungstechnik, 
%  11.Aufl., Hanser-Verlag, München, 2009
%  ISBN 978-3-446-41765-6
%
%  Unterprogramme: s0225.mdl 
%
%  (c) 5.7.09  R.Froriep
%
% ########################################################
%
%  Variations-Empfehlungen:
%
%    Modellansatz: Aufruf von s0225 am MATLAB-Prompt
%
%    Modellparameter:
%      P-Beiwert     Kp  im Bereich   3 <  Kp  <   6
%      Zeitkonstante T1  im Bereich  10 <  T1  < 100
%
%      Optimum: Kp=4.76 cm/V  und T1=71,4 s
%
% ########################################################
clear
 
      Kp=3.5;       % Voreinstellung Kp=3.5
           
      T1=15;        % Voreinstellung T1=15.

% ########################################################

menu='none';  % none oder fig
close all
fonts=8;

figure(1)
set(gcf,'Units','normal','Position',[.45 .5 .5 .35], ...
    'NumberTitle','off','MenuBar',menu,...
    'Name',' Bild 2.25');
axes('Position',[0 0 .5 .04],'visible','off')
text(.01,.5,'(c) Mann/Schiffelgen/Froriep, Hanser-Verlag','fontsize',8)
axes

set(gca,'FontSize',fonts,...
    'PlotBoxAspectRatio',[1 .5 1],...
    'XLim',[-50 500],...
    'XTick',[0:100:1000],...
    'YLim',[-4 8],...
    'YTick',[-10:2:10],...
    'NextPlot','add','Box','on');
xachsx=[-50 500]; xachsy=[0 0];
yachsx=[0 0]; yachsy=[-10 10];
plot(xachsx,xachsy,'k',yachsx,yachsy,'k')
grid off
xlabel('t (s) \rightarrow')
ylabel('\Deltah/\Deltau_{P} (cm/V) \rightarrow')
title('Fett: Berechnete Übergangsfunktion');



%  Gemessene normierte Sprungantworten:
%  (mit mb23_12 berechnet)

Messdaten= [
        0         0         0         0         0
    0.0018   -0.0000   -0.0000    0.0000    0.0000
    0.0107   -0.0000   -0.0000    0.0000    0.0000
    0.0553   -0.0001   -0.0001    0.0001    0.0001
    0.2781   -0.0003   -0.0006    0.0006    0.0003
    1.0000   -0.0011   -0.0022    0.0022    0.0011
    1.0000   -0.0011   -0.0022    0.0022    0.0011
    1.0000   -0.0011   -0.0022    0.0022    0.0011
    1.7219    0.0413    0.0348    0.0610    0.0544
    2.0000    0.0576    0.0490    0.0834    0.0748
    3.0000    0.1256    0.1198    0.1432    0.1373
    4.0000    0.1860    0.1762    0.2155    0.2057
    5.0000    0.2490    0.2386    0.2800    0.2697
    6.0000    0.3128    0.3039    0.3400    0.3310
    7.0000    0.3775    0.3715    0.3958    0.3898
    8.0000    0.4379    0.4316    0.4574    0.4511
    9.0000    0.4961    0.4881    0.5210    0.5129
   10.0000    0.5545    0.5458    0.5816    0.5729
   11.0000    0.6112    0.6011    0.6431    0.6329
   12.0000    0.6672    0.6556    0.7036    0.6921
   13.0000    0.7243    0.7134    0.7594    0.7484
   14.0000    0.7762    0.7616    0.8231    0.8084
   15.0000    0.8330    0.8202    0.8748    0.8620
   16.0000    0.8939    0.8881    0.9157    0.9099
   17.0000    0.9522    0.9515    0.9596    0.9588
   18.0000    0.9991    0.9929    1.0241    1.0177
   19.0000    1.0524    1.0477    1.0736    1.0688
   20.0000    1.1065    1.1051    1.1190    1.1175
   21.0000    1.1594    1.1610    1.1646    1.1660
   22.0000    1.2113    1.2155    1.2102    1.2141
   23.0000    1.2617    1.2676    1.2568    1.2624
   24.0000    1.3113    1.3190    1.3026    1.3100
   25.0000    1.3593    1.3679    1.3496    1.3579
   26.0000    1.4012    1.4054    1.4067    1.4105
   27.0000    1.4469    1.4512    1.4542    1.4580
   28.0000    1.4881    1.4888    1.5085    1.5086
   29.0000    1.5304    1.5290    1.5590    1.5570
   30.0000    1.5733    1.5713    1.6061    1.6035
   31.0000    1.6184    1.6189    1.6468    1.6464
   32.0000    1.6625    1.6649    1.6877    1.6892
   33.0000    1.7053    1.7089    1.7294    1.7321
   34.0000    1.7505    1.7587    1.7642    1.7712
   35.0000    1.7845    1.7863    1.8199    1.8206
   36.0000    1.8215    1.8208    1.8676    1.8656
   37.0000    1.8631    1.8653    1.9042    1.9049
   38.0000    1.9051    1.9110    1.9384    1.9427
   39.0000    1.9438    1.9509    1.9773    1.9827
   40.0000    1.9791    1.9844    2.0215    2.0249
   41.0000    2.0170    2.0240    2.0586    2.0635
   42.0000    2.0576    2.0693    2.0888    2.0983
   43.0000    2.0964    2.1117    2.1209    2.1339
   44.0000    2.1318    2.1479    2.1582    2.1717
   45.0000    2.1629    2.1761    2.2024    2.2129
   46.0000    2.1973    2.2114    2.2385    2.2497
   47.0000    2.2281    2.2401    2.2802    2.2891
   48.0000    2.2630    2.2775    2.3123    2.3235
   49.0000    2.2957    2.3112    2.3471    2.3590
   50.0000    2.3274    2.3434    2.3824    2.3946
   51.0000    2.3642    2.3862    2.4061    2.4242
   52.0000    2.4025    2.4325    2.4255    2.4514
   53.0000    2.4317    2.4613    2.4614    2.4866
   54.0000    2.4623    2.4932    2.4934    2.5197
   55.0000    2.4882    2.5163    2.5332    2.5564
   56.0000    2.5175    2.5468    2.5648    2.5889
   57.0000    2.5474    2.5789    2.5939    2.6199
   58.0000    2.5773    2.6114    2.6217    2.6501
   59.0000    2.6029    2.6360    2.6566    2.6837
   60.0000    2.6286    2.6611    2.6901    2.7164
   61.0000    2.6528    2.6836    2.7255    2.7498
   62.0000    2.6731    2.6988    2.7673    2.7862
   63.0000    2.6972    2.7222    2.8002    2.8180
   64.0000    2.7283    2.7599    2.8180    2.8421
   65.0000    2.7531    2.7854    2.8471    2.8717
   66.0000    2.7731    2.8020    2.8845    2.9052
   67.0000    2.8007    2.8339    2.9057    2.9305
   68.0000    2.8248    2.8593    2.9327    2.9585
   69.0000    2.8531    2.8936    2.9501    2.9815
   70.0000    2.8751    2.9156    2.9791    3.0101
   71.0000    2.8994    2.9427    3.0022    3.0357
   72.0000    2.9267    2.9762    3.0183    3.0576
   73.0000    2.9470    2.9958    3.0475    3.0859
   74.0000    2.9619    3.0053    3.0862    3.1188
   75.0000    2.9813    3.0240    3.1151    3.1466
   76.0000    3.0028    3.0474    3.1385    3.1715
   77.0000    3.0138    3.0500    3.1821    3.2064
   78.0000    3.0363    3.0761    3.2015    3.2290
   79.0000    3.0529    3.0906    3.2319    3.2570
   80.0000    3.0702    3.1070    3.2598    3.2835
   81.0000    3.0873    3.1233    3.2872    3.3097
   82.0000    3.1062    3.1435    3.3100    3.3335
   83.0000    3.1293    3.1724    3.3236    3.3524
   84.0000    3.1457    3.1882    3.3497    3.3775
   85.0000    3.1631    3.2065    3.3726    3.4010
   86.0000    3.1855    3.2348    3.3850    3.4189
   87.0000    3.1942    3.2362    3.4237    3.4500
   88.0000    3.2065    3.2452    3.4543    3.4768
   89.0000    3.2235    3.2636    3.4749    3.4985
   90.0000    3.2438    3.2892    3.4878    3.5162
   91.0000    3.2622    3.3112    3.5037    3.5353
   92.0000    3.2793    3.3308    3.5215    3.5552
   93.0000    3.2952    3.3483    3.5409    3.5758
   94.0000    3.3135    3.3709    3.5547    3.5935
   95.0000    3.3316    3.3933    3.5681    3.6109
   96.0000    3.3482    3.4131    3.5837    3.6292
   97.0000    3.3657    3.4350    3.5967    3.6461
   98.0000    3.3765    3.4436    3.6224    3.6693
   99.0000    3.3936    3.4651    3.6348    3.6857
  100.0000    3.4056    3.4766    3.6567    3.7067
  101.0000    3.4126    3.4783    3.6880    3.7323
  102.0000    3.4292    3.4995    3.6993    3.7479
  103.0000    3.4409    3.5112    3.7196    3.7678
  104.0000    3.4560    3.5298    3.7327    3.7839
  105.0000    3.4696    3.5457    3.7479    3.8011
  106.0000    3.4865    3.5685    3.7558    3.8144
  107.0000    3.4934    3.5714    3.7832    3.8375
  108.0000    3.5053    3.5846    3.7999    3.8550
  109.0000    3.5177    3.5990    3.8150    3.8717
  110.0000    3.5295    3.6123    3.8307    3.8886
  111.0000    3.5416    3.6264    3.8452    3.9048
  112.0000    3.5563    3.6460    3.8539    3.9179
  113.0000    3.5678    3.6594    3.8683    3.9338
  114.0000    3.5755    3.6652    3.8899    3.9533
  115.0000    3.5796    3.6642    3.9180    3.9759
  116.0000    3.5900    3.6760    3.9329    3.9917
  117.0000    3.6082    3.7034    3.9319    3.9996
  118.0000    3.6139    3.7062    3.9550    4.0194
  119.0000    3.6244    3.7186    3.9681    4.0341
  120.0000    3.6301    3.7216    3.9904    4.0534
  121.0000    3.6369    3.7270    4.0099    4.0711
  122.0000    3.6470    3.7391    4.0223    4.0852
  123.0000    3.6591    3.7554    4.0302    4.0970
  124.0000    3.6640    3.7576    4.0519    4.1155
  125.0000    3.6758    3.7736    4.0595    4.1270
  126.0000    3.6867    3.7881    4.0681    4.1389
  127.0000    3.6924    3.7923    4.0868    4.1557
  128.0000    3.6999    3.8002    4.1015    4.1704
  129.0000    3.7135    3.8203    4.1036    4.1788
  130.0000    3.7224    3.8314    4.1145    4.1915
  131.0000    3.7311    3.8420    4.1255    4.2041
  132.0000    3.7396    3.8525    4.1363    4.2167
  133.0000    3.7464    3.8596    4.1502    4.2306
  134.0000    3.7586    3.8778    4.1528    4.2388
  135.0000    3.7676    3.8896    4.1615    4.2500
  136.0000    3.7794    3.9073    4.1639    4.2580
  137.0000    3.7843    3.9112    4.1799    4.2727
  138.0000    3.7878    3.9124    4.1983    4.2886
  139.0000    3.7955    3.9222    4.2078    4.2999
  140.0000    3.8014    3.9283    4.2208    4.3129
  141.0000    3.8061    3.9323    4.2356    4.3267
  142.0000    3.8113    3.9376    4.2489    4.3397
  143.0000    3.8162    3.9421    4.2627    4.3529
  144.0000    3.8234    3.9514    4.2713    4.3634
  145.0000    3.8286    3.9568    4.2838    4.3758
  146.0000    3.8390    3.9727    4.2854    4.3827
  147.0000    3.8436    3.9772    4.2981    4.3951
  148.0000    3.8459    3.9771    4.3153    4.4096
  149.0000    3.8525    3.9858    4.3234    4.4195
  150.0000    3.8585    3.9932    4.3326    4.4299
  151.0000    3.8582    3.9883    4.3539    4.4463
  152.0000    3.8647    3.9969    4.3614    4.4558
  153.0000    3.8698    4.0030    4.3712    4.4663
  154.0000    3.8731    4.0054    4.3844    4.4785
  155.0000    3.8814    4.0180    4.3873    4.4855
  156.0000    3.8859    4.0231    4.3974    4.4960
  157.0000    3.8876    4.0227    4.4129    4.5091
  158.0000    3.8916    4.0268    4.4236    4.5198
  159.0000    3.8961    4.0322    4.4328    4.5297
  160.0000    3.9063    4.0490    4.4304    4.5338
  161.0000    3.9148    4.0626    4.4311    4.5393
  162.0000    3.9261    4.0817    4.4260    4.5419
  163.0000    3.9340    4.0940    4.4275    4.5477
  164.0000    3.9375    4.0979    4.4373    4.5576
  165.0000    3.9423    4.1041    4.4445    4.5661
  166.0000    3.9498    4.1159    4.4459    4.5717
  167.0000    3.9465    4.1063    4.4687    4.5880
  168.0000    3.9527    4.1156    4.4722    4.5945
  169.0000    3.9567    4.1207    4.4799    4.6031
  170.0000    3.9609    4.1261    4.4870    4.6113
  171.0000    3.9644    4.1304    4.4951    4.6201
  172.0000    3.9657    4.1302    4.5075    4.6309
  173.0000    3.9768    4.1497    4.5000    4.6316
  174.0000    3.9855    4.1644    4.4971    4.6347
  175.0000    3.9945    4.1799    4.4933    4.6373
  176.0000    3.9969    4.1822    4.5026    4.6463
  177.0000    4.0005    4.1869    4.5093    4.6540
  178.0000    4.0041    4.1916    4.5158    4.6616
  179.0000    4.0073    4.1956    4.5228    4.6693
  180.0000    4.0071    4.1930    4.5364    4.6803
  181.0000    4.0116    4.1998    4.5404    4.6865
  182.0000    4.0201    4.2144    4.5363    4.6886
  183.0000    4.0265    4.2252    4.5360    4.6925
  184.0000    4.0332    4.2365    4.5351    4.6961
  185.0000    4.0404    4.2488    4.5329    4.6990
  186.0000    4.0431    4.2521    4.5397    4.7063
  187.0000    4.0508    4.2656    4.5360    4.7084
  188.0000    4.0544    4.2709    4.5405    4.7145
  189.0000    4.0528    4.2658    4.5552    4.7257
  190.0000    4.0594    4.2772    4.5534    4.7286
  191.0000    4.0632    4.2830    4.5569    4.7341
  192.0000    4.0689    4.2925    4.5566    4.7377
  193.0000    4.0749    4.3029    4.5554    4.7407
  194.0000    4.0728    4.2970    4.5702    4.7518
  195.0000    4.0773    4.3043    4.5718    4.7561
  196.0000    4.0835    4.3151    4.5697    4.7587
  197.0000    4.0894    4.3253    4.5682    4.7614
  198.0000    4.0939    4.3329    4.5691    4.7653
  199.0000    4.0954    4.3344    4.5760    4.7722
  200.0000    4.1002    4.3425    4.5761    4.7757
  201.0000    4.0987    4.3380    4.5887    4.7854
  202.0000    4.1015    4.3422    4.5925    4.7906
  203.0000    4.1025    4.3429    4.5998    4.7975
  204.0000    4.1083    4.3531    4.5974    4.7996
  205.0000    4.1118    4.3588    4.5995    4.8038
  206.0000    4.1126    4.3591    4.6068    4.8107
  207.0000    4.1170    4.3667    4.6067    4.8138
  208.0000    4.1212    4.3739    4.6069    4.8170
  209.0000    4.1232    4.3767    4.6114    4.8224
  210.0000    4.1250    4.3791    4.6162    4.8278
  211.0000    4.1307    4.3894    4.6130    4.8292
  212.0000    4.1316    4.3901    4.6192    4.8354
  213.0000    4.1290    4.3838    4.6325    4.8449
  214.0000    4.1251    4.3751    4.6480    4.8556
  215.0000    4.1319    4.3875    4.6422    4.8557
  216.0000    4.1284    4.3796    4.6568    4.8658
  217.0000    4.1246    4.3711    4.6718    4.8761
  218.0000    4.1248    4.3705    4.6788    4.8825
  219.0000    4.1289    4.3779    4.6779    4.8848
  220.0000    4.1283    4.3757    4.6863    4.8917
  221.0000    4.1292    4.3766    4.6916    4.8971
  222.0000    4.1343    4.3860    4.6883    4.8981
  223.0000    4.1369    4.3902    4.6901    4.9017
  224.0000    4.1394    4.3945    4.6917    4.9052
  225.0000    4.1384    4.3916    4.7004    4.9121
  226.0000    4.1392    4.3926    4.7053    4.9171
  227.0000    4.1433    4.4000    4.7035    4.9188
  228.0000    4.1408    4.3943    4.7149    4.9270
  229.0000    4.1383    4.3884    4.7263    4.9352
  230.0000    4.1391    4.3894    4.7307    4.9399
  231.0000    4.1385    4.3874    4.7381    4.9460
  232.0000    4.1385    4.3869    4.7440    4.9514
  233.0000    4.1393    4.3878    4.7482    4.9559
  234.0000    4.1459    4.4003    4.7409    4.9546
  235.0000    4.1433    4.3944    4.7519    4.9625
  236.0000    4.1475    4.4023    4.7490    4.9633
  237.0000    4.1494    4.4055    4.7508    4.9665
  238.0000    4.1482    4.4025    4.7587    4.9727
  239.0000    4.1453    4.3961    4.7699    4.9806
  240.0000    4.1509    4.4067    4.7641    4.9799
  241.0000    4.1531    4.4106    4.7649    4.9825
  242.0000    4.1585    4.4210    4.7591    4.9818
  243.0000    4.1554    4.4143    4.7704    4.9896
  244.0000    4.1570    4.4169    4.7723    4.9926
  245.0000    4.1599    4.4223    4.7714    4.9943
  246.0000    4.1675    4.4370    4.7610    4.9912
  247.0000    4.1723    4.4463    4.7561    4.9908
  248.0000    4.1747    4.4506    4.7560    4.9928
  249.0000    4.1705    4.4417    4.7691    5.0014
  250.0000    4.1716    4.4434    4.7715    5.0046
  251.0000    4.1732    4.4464    4.7727    5.0071
  252.0000    4.1732    4.4459    4.7772    5.0113
  253.0000    4.1743    4.4477    4.7794    5.0144
  254.0000    4.1745    4.4476    4.7833    5.0182
  255.0000    4.1730    4.4442    4.7906    5.0238
  256.0000    4.1734    4.4447    4.7940    5.0273
  257.0000    4.1719    4.4414    4.8011    5.0327
  258.0000    4.1729    4.4431    4.8030    5.0355
  259.0000    4.1753    4.4476    4.8022    5.0369
  260.0000    4.1725    4.4416    4.8118    5.0436
  261.0000    4.1720    4.4403    4.8167    5.0477
  262.0000    4.1752    4.4463    4.8142    5.0483
  263.0000    4.1784    4.4526    4.8114    5.0486
  264.0000    4.1729    4.4413    4.8261    5.0577
  265.0000    4.1724    4.4399    4.8308    5.0617
  266.0000    4.1806    4.4562    4.8179    5.0570
  267.0000    4.1820    4.4587    4.8187    5.0590
  268.0000    4.1791    4.4527    4.8279    5.0653
  269.0000    4.1784    4.4510    4.8328    5.0694
  270.0000    4.1809    4.4557    4.8313    5.0702
  271.0000    4.1806    4.4549    4.8352    5.0738
  272.0000    4.1878    4.4691    4.8240    5.0698
  273.0000    4.1859    4.4651    4.8311    5.0749
  274.0000    4.1832    4.4594    4.8398    5.0808
  275.0000    4.1856    4.4641    4.8380    5.0814
  276.0000    4.1852    4.4630    4.8420    5.0849
  277.0000    4.1803    4.4529    4.8549    5.0929
  278.0000    4.1821    4.4564    4.8543    5.0940
  279.0000    4.1802    4.4524    4.8611    5.0989
  280.0000    4.1803    4.4525    4.8637    5.1017
  281.0000    4.1800    4.4518    4.8672    5.1048
  282.0000    4.1721    4.4357    4.8859    5.1156
  283.0000    4.1679    4.4273    4.8970    5.1226
  284.0000    4.1710    4.4333    4.8936    5.1222
  285.0000    4.1748    4.4406    4.8889    5.1213
  286.0000    4.1795    4.4500    4.8820    5.1192
  287.0000    4.1784    4.4475    4.8869    5.1230
  288.0000    4.1736    4.4378    4.8992    5.1305
  289.0000    4.1760    4.4425    4.8969    5.1306
  290.0000    4.1777    4.4457    4.8961    5.1315
  291.0000    4.1753    4.4409    4.9033    5.1364
  292.0000    4.1735    4.4372    4.9093    5.1407
  293.0000    4.1710    4.4320    4.9168    5.1457
  294.0000    4.1694    4.4287    4.9223    5.1497
  295.0000    4.1701    4.4300    4.9233    5.1514
  296.0000    4.1716    4.4330    4.9225    5.1523
  297.0000    4.1739    4.4373    4.9204    5.1524
  298.0000    4.1742    4.4378    4.9220    5.1544
  299.0000    4.1771    4.4435    4.9185    5.1538
  300.0000    4.1772    4.4437    4.9203    5.1559
  301.0000    4.1794    4.4479    4.9182    5.1560
  302.0000    4.1829    4.4548    4.9133    5.1548
  303.0000    4.1820    4.4530    4.9172    5.1578
  304.0000    4.1796    4.4482    4.9240    5.1623
  305.0000    4.1725    4.4340    4.9401    5.1715
  306.0000    4.1692    4.4273    4.9487    5.1769
  307.0000    4.1737    4.4361    4.9419    5.1746
  308.0000    4.1718    4.4323    4.9475    5.1785
  309.0000    4.1783    4.4451    4.9366    5.1741
  310.0000    4.1792    4.4470    4.9365    5.1751
  311.0000    4.1798    4.4481    4.9372    5.1765
  312.0000    4.1794    4.4473    4.9398    5.1788
  313.0000    4.1777    4.4438    4.9450    5.1825
  314.0000    4.1761    4.4404    4.9501    5.1860
  315.0000    4.1772    4.4428    4.9495    5.1867
  316.0000    4.1753    4.4388    4.9551    5.1905
  317.0000    4.1759    4.4399    4.9557    5.1918
  318.0000    4.1779    4.4440    4.9533    5.1915
  319.0000    4.1788    4.4456    4.9533    5.1925
  320.0000    4.1849    4.4579    4.9426    5.1881
  321.0000    4.1825    4.4531    4.9490    5.1922
  322.0000    4.1826    4.4532    4.9505    5.1939
  323.0000    4.1788    4.4455    4.9596    5.1994
  324.0000    4.1793    4.4466    4.9601    5.2005
  325.0000    4.1874    4.4627    4.9454    5.1941
  326.0000    4.1847    4.4572    4.9524    5.1984
  327.0000    4.1849    4.4577    4.9534    5.1998
  328.0000    4.1806    4.4491    4.9634    5.2057
  329.0000    4.1795    4.4468    4.9671    5.2084
  330.0000    4.1834    4.4545    4.9608    5.2061
  331.0000    4.1868    4.4613    4.9553    5.2042
  332.0000    4.1856    4.4589    4.9591    5.2069
  333.0000    4.1830    4.4536    4.9657    5.2111
  334.0000    4.1835    4.4547    4.9660    5.2120
  335.0000    4.1841    4.4558    4.9662    5.2129
  336.0000    4.1848    4.4573    4.9660    5.2136
  337.0000    4.1877    4.4630    4.9616    5.2122
  338.0000    4.1843    4.4563    4.9695    5.2170
  339.0000    4.1861    4.4597    4.9673    5.2166
  340.0000    4.1888    4.4652    4.9631    5.2153
  341.0000    4.1925    4.4726    4.9568    5.2129
  342.0000    4.1893    4.4661    4.9645    5.2175
  343.0000    4.1910    4.4696    4.9622    5.2171
  344.0000    4.1934    4.4743    4.9587    5.2161
  345.0000    4.1948    4.4771    4.9570    5.2160
  346.0000    4.1975    4.4826    4.9526    5.2145
  347.0000    4.1986    4.4847    4.9516    5.2147
  348.0000    4.2002    4.4880    4.9495    5.2143
  349.0000    4.2022    4.4919    4.9466    5.2136
  350.0000    4.2030    4.4936    4.9460    5.2139
  351.0000    4.2004    4.4884    4.9522    5.2177
  352.0000    4.2063    4.5001    4.9415    5.2131
  353.0000    4.2060    4.4996    4.9431    5.2145
  354.0000    4.2103    4.5081    4.9356    5.2114
  355.0000    4.2215    4.5306    4.9141    5.2013
  356.0000    4.2221    4.5317    4.9139    5.2019
  357.0000    4.2196    4.5267    4.9200    5.2056
  358.0000    4.2164    4.5203    4.9273    5.2098
  359.0000    4.2136    4.5147    4.9338    5.2137
  360.0000    4.2124    4.5124    4.9371    5.2160
  361.0000    4.2163    4.5202    4.9302    5.2131
  362.0000    4.2129    4.5133    4.9380    5.2176
  363.0000    4.2163    4.5202    4.9319    5.2152
  364.0000    4.2171    4.5218    4.9313    5.2155
  365.0000    4.2170    4.5215    4.9324    5.2166
  366.0000    4.2202    4.5281    4.9267    5.2144
  367.0000    4.2215    4.5306    4.9251    5.2141
  368.0000    4.2249    4.5373    4.9191    5.2117
  369.0000    4.2180    4.5236    4.9337    5.2196
  370.0000    4.2211    4.5299    4.9282    5.2174
  371.0000    4.2214    4.5304    4.9285    5.2181
  372.0000    4.2228    4.5332    4.9265    5.2176
  373.0000    4.2239    4.5355    4.9249    5.2174
  374.0000    4.2248    4.5373    4.9239    5.2174
  375.0000    4.2240    4.5357    4.9263    5.2191
  376.0000    4.2211    4.5298    4.9330    5.2230
  377.0000    4.2274    4.5424    4.9211    5.2175
  378.0000    4.2266    4.5408    4.9234    5.2192
  379.0000    4.2256    4.5389    4.9261    5.2210
  380.0000    4.2274    4.5425    4.9232    5.2201
  381.0000    4.2338    4.5554    4.9110    5.2145
  382.0000    4.2273    4.5424    4.9247    5.2218
  383.0000    4.2290    4.5458    4.9220    5.2210
  384.0000    4.2262    4.5402    4.9282    5.2245
  385.0000    4.2264    4.5406    4.9285    5.2252
  386.0000    4.2237    4.5352    4.9345    5.2286
  387.0000    4.2246    4.5370    4.9334    5.2285
  388.0000    4.2247    4.5373    4.9338    5.2292
  389.0000    4.2235    4.5348    4.9369    5.2312
  390.0000    4.2220    4.5320    4.9403    5.2334
  391.0000    4.2198    4.5274    4.9455    5.2364
  392.0000    4.2221    4.5321    4.9414    5.2348
  393.0000    4.2202    4.5283    4.9458    5.2374
  394.0000    4.2208    4.5296    4.9451    5.2375
  395.0000    4.2259    4.5398    4.9354    5.2331
  396.0000    4.2259    4.5398    4.9361    5.2338
  397.0000    4.2229    4.5338    4.9426    5.2375
  398.0000    4.2206    4.5292    4.9478    5.2405
  399.0000    4.2191    4.5261    4.9514    5.2427
  400.0000    4.2171    4.5223    4.9558    5.2453
  401.0000    4.2166    4.5212    4.9574    5.2465
  402.0000    4.2124    4.5128    4.9663    5.2514
  403.0000    4.2081    4.5043    4.9754    5.2563
  404.0000    4.2098    4.5077    4.9725    5.2552
  405.0000    4.2119    4.5120    4.9687    5.2537
  406.0000    4.2132    4.5146    4.9666    5.2530
  407.0000    4.2145    4.5172    4.9645    5.2524
  408.0000    4.2190    4.5261    4.9560    5.2485
  409.0000    4.2193    4.5268    4.9558    5.2488
  410.0000    4.2182    4.5246    4.9585    5.2505
  411.0000    4.2176    4.5233    4.9603    5.2517
  412.0000    4.2124    4.5130    4.9711    5.2575
  413.0000    4.2121    4.5125    4.9720    5.2583
  414.0000    4.2119    4.5120    4.9729    5.2591
  415.0000    4.2109    4.5101    4.9753    5.2606
  416.0000    4.2132    4.5146    4.9712    5.2589
  417.0000    4.2113    4.5109    4.9754    5.2613
  418.0000    4.2066    4.5015    4.9852    5.2666
  419.0000    4.2035    4.4953    4.9918    5.2702
  420.0000    4.1993    4.4870    5.0005    5.2749
  421.0000    4.1992    4.4867    5.0012    5.2756
  422.0000    4.2031    4.4945    4.9939    5.2722
  423.0000    4.2087    4.5058    4.9830    5.2671
  424.0000    4.2072    4.5027    4.9865    5.2691
  425.0000    4.2051    4.4986    4.9909    5.2717
  426.0000    4.2064    4.5013    4.9887    5.2708
  427.0000    4.2057    4.4999    4.9904    5.2720
  428.0000    4.2088    4.5061    4.9846    5.2694
  429.0000    4.2104    4.5093    4.9817    5.2683
  430.0000    4.2061    4.5007    4.9908    5.2731
  431.0000    4.2036    4.4958    4.9960    5.2760
  432.0000    4.2068    4.5021    4.9901    5.2733
  433.0000    4.2059    4.5003    4.9922    5.2747
  434.0000    4.2126    4.5137    4.9792    5.2684
  435.0000    4.2115    4.5115    4.9817    5.2699
  436.0000    4.2100    4.5087    4.9849    5.2718
  437.0000    4.2132    4.5150    4.9789    5.2691
  438.0000    4.2183    4.5253    4.9689    5.2644
  439.0000    4.2145    4.5176    4.9769    5.2686
  440.0000    4.2095    4.5077    4.9871    5.2740
  441.0000    4.2099    4.5084    4.9868    5.2741
  442.0000    4.2114    4.5115    4.9839    5.2729
  443.0000    4.2154    4.5195    4.9762    5.2693
  444.0000    4.2137    4.5161    4.9800    5.2714
  445.0000    4.2147    4.5181    4.9783    5.2709
  446.0000    4.2190    4.5267    4.9700    5.2669
  447.0000    4.2202    4.5291    4.9678    5.2661
  448.0000    4.2177    4.5242    4.9730    5.2689
  449.0000    4.2183    4.5254    4.9721    5.2687
  450.0000    4.2174    4.5236    4.9742    5.2700
  451.0000    4.2198    4.5284    4.9697    5.2680
  452.0000    4.2210    4.5307    4.9676    5.2672
  453.0000    4.2179    4.5246    4.9740    5.2706
  454.0000    4.2180    4.5248    4.9741    5.2709
  455.0000    4.2158    4.5203    4.9788    5.2734
  456.0000    4.2134    4.5157    4.9837    5.2761
  457.0000    4.2130    4.5149    4.9848    5.2769
  458.0000    4.2102    4.5093    4.9906    5.2800
  459.0000    4.2087    4.5063    4.9938    5.2818
  460.0000    4.2117    4.5123    4.9881    5.2792
  461.0000    4.2080    4.5050    4.9956    5.2831
  462.0000    4.2098    4.5086    4.9923    5.2817
  463.0000    4.2160    4.5209    4.9802    5.2759
  464.0000    4.2137    4.5163    4.9851    5.2785
  465.0000    4.2159    4.5207    4.9808    5.2766
  466.0000    4.2108    4.5105    4.9913    5.2820
  467.0000    4.2152    4.5194    4.9827    5.2779
  468.0000    4.2211    4.5312    4.9711    5.2723
  469.0000    4.2233    4.5355    4.9669    5.2704
  470.0000    4.2250    4.5391    4.9636    5.2689
  471.0000    4.2246    4.5383    4.9646    5.2696
  472.0000    4.2218    4.5326    4.9705    5.2727
  473.0000    4.2186    4.5262    4.9771    5.2762
  474.0000    4.2213    4.5316    4.9719    5.2738
  475.0000    4.2216    4.5322    4.9715    5.2738
  476.0000    4.2237    4.5364    4.9675    5.2720
  477.0000    4.2204    4.5298    4.9743    5.2755
  478.0000    4.2164    4.5220    4.9823    5.2797
  479.0000    4.2148    4.5186    4.9858    5.2816
  480.0000    4.2194    4.5280    4.9767    5.2773
  481.0000    4.2198    4.5288    4.9761    5.2771
  482.0000    4.2166    4.5223    4.9828    5.2806
  483.0000    4.2161    4.5213    4.9840    5.2814
  484.0000    4.2161    4.5214    4.9840    5.2816
  485.0000    4.2155    4.5202    4.9854    5.2824
  486.0000    4.2113    4.5117    4.9941    5.2869
  487.0000    4.2103    4.5099    4.9960    5.2881
  488.0000    4.2148    4.5189    4.9872    5.2838
  489.0000    4.2203    4.5297    4.9765    5.2786
  490.0000    4.2208    4.5309    4.9755    5.2783
  491.0000    4.2175    4.5242    4.9824    5.2818
  492.0000    4.2157    4.5206    4.9862    5.2839
  493.0000    4.2152    4.5197    4.9872    5.2846
  494.0000    4.2181    4.5254    4.9817    5.2819
  495.0000    4.2159    4.5211    4.9862    5.2843
  496.0000    4.2176    4.5246    4.9828    5.2828
  497.0000    4.2204    4.5302    4.9774    5.2802
  498.0000    4.2205    4.5302    4.9774    5.2804
  499.0000    4.2224    4.5340    4.9738    5.2787
  500.0000    4.2230    4.5352    4.9727    5.2783
];

t=Messdaten(:,1);
DSprungNorm=Messdaten(:,2:5);
plot(t,DSprungNorm,'k')

% Übergangsfunktion PT1-Glied
opts=simset('Solver','ode45',...
    'InitialState',[],...
    'MaxStep',2.0);
[t,x,y]=sim('s0225',[0 500],opts);
plot(t,y(:,1),'k','linewidth',1.5)

% Kp=4.75; % cm/V
% T1=70; % s
% 
% opts=simset('Solver','ode45',...
%     'InitialState',[],...
%     'MaxStep',2.0);
% [t,x,y]=sim('s0225',[0 500],opts);
% plot(t,y(:,1),'k','linewidth',1.5)

